aX,aY,aZ
-0.4443359375, 0.21044921875, 1.97802734375
-0.47412109375, 0.3251953125, 2.16162109375
-0.47412109375, 0.3251953125, 2.16162109375
-0.52099609375, 0.34619140625, 2.224609375
-0.47705078125, 0.3642578125, 2.09521484375
-0.43994140625, 0.20703125, 1.4365234375
-0.43994140625, 0.20703125, 1.4365234375
-0.47705078125, 0.0888671875, 1.1376953125
-0.4228515625, 0.07470703125, 0.6748046875
-0.32666015625, 0.10546875, 0.50244140625
-0.1318359375, -0.30078125, 0.1025390625
-0.1318359375, -0.30078125, 0.1025390625
0.0693359375, -0.298828125, 0.0234375
0.2294921875, -0.30029296875, -0.20068359375
0.29736328125, -0.33203125, -0.38623046875
0.29736328125, -0.33203125, -0.38623046875
0.1337890625, -0.4052734375, -0.4755859375
0.10546875, -0.7255859375, -0.77392578125
0.2451171875, -0.78857421875, -0.900390625
0.328125, -0.7666015625, -1.0185546875
0.328125, -0.7666015625, -1.0185546875
0.29345703125, -0.6884765625, -0.958984375
0.23388671875, -0.6474609375, -0.81640625
0.18896484375, -0.73828125, -0.861328125
0.18896484375, -0.73828125, -0.861328125
0.26513671875, -0.86376953125, -0.93212890625
0.29443359375, -0.8203125, -0.76806640625
0.2841796875, -0.78564453125, -0.66015625
0.3017578125, -0.77099609375, -0.4931640625
0.3017578125, -0.77099609375, -0.4931640625
0.328125, -0.798828125, -0.43408203125
0.3671875, -0.833984375, -0.4169921875
0.37109375, -0.91552734375, -0.4326171875
0.37109375, -0.91552734375, -0.4326171875
0.37451171875, -0.9775390625, -0.44677734375
0.396484375, -0.94287109375, -0.36572265625
0.4140625, -0.931640625, -0.40771484375
0.4140625, -0.931640625, -0.40771484375
0.40625, -0.94775390625, -0.46142578125
0.3720703125, -0.9384765625, -0.46923828125
0.30712890625, -0.90478515625, -0.35791015625
0.3037109375, -0.8115234375, -0.28369140625
0.36474609375, -0.75244140625, -0.23583984375
0.36474609375, -0.75244140625, -0.23583984375
0.41845703125, -0.79345703125, -0.287109375
0.38720703125, -0.72412109375, -0.17822265625
0.3642578125, -0.66845703125, -0.07421875
0.3642578125, -0.66845703125, -0.07421875
0.44677734375, -0.52734375, 0.083984375
0.5166015625, -0.482421875, 0.18896484375
0.51171875, -0.453125, 0.236328125
0.51171875, -0.453125, 0.236328125
0.431640625, -0.42578125, 0.404296875
0.419921875, -0.408203125, 0.47216796875
0.41064453125, -0.376953125, 0.68310546875
0.45849609375, -0.3427734375, 0.7333984375
0.45849609375, -0.3427734375, 0.7333984375
0.48291015625, -0.27587890625, 0.732421875
0.447265625, -0.25244140625, 0.7060546875
0.4326171875, -0.1962890625, 0.80810546875
0.4326171875, -0.1962890625, 0.80810546875
0.46484375, -0.080078125, 1.046875
0.41455078125, -0.07568359375, 1.11572265625
0.28515625, -0.1787109375, 1.189453125
0.2177734375, -0.173828125, 1.18896484375
0.2177734375, -0.173828125, 1.18896484375
0.08349609375, -0.13134765625, 1.2265625
0.05419921875, -0.10595703125, 1.28271484375
0.05029296875, -0.1298828125, 1.37744140625
0.05029296875, -0.1298828125, 1.37744140625
0.0048828125, -0.16064453125, 1.35205078125
-0.04833984375, -0.2236328125, 1.2744140625
-0.052734375, -0.212890625, 1.22021484375
-0.07421875, -0.19873046875, 1.17822265625
-0.07421875, -0.19873046875, 1.17822265625
-0.08447265625, -0.232421875, 1.1484375
-0.09619140625, -0.2509765625, 1.07470703125
-0.119140625, -0.302734375, 1.0537109375
-0.119140625, -0.302734375, 1.0537109375
-0.08349609375, -0.2900390625, 1.09912109375
-0.03759765625, -0.298828125, 1.03466796875
-0.044921875, -0.3271484375, 1.015625
-0.005859375, -0.296875, 1.02880859375
-0.005859375, -0.296875, 1.02880859375
0.01708984375, -0.279296875, 1.0400390625
0.01904296875, -0.28369140625, 0.95751953125
0.01025390625, -0.34814453125, 0.91455078125
0.01025390625, -0.34814453125, 0.91455078125
0.01904296875, -0.3291015625, 0.94775390625
0.06787109375, -0.28857421875, 0.9921875
0.08544921875, -0.28759765625, 0.9599609375
0.08544921875, -0.30078125, 0.9619140625
0.08544921875, -0.30078125, 0.9619140625
0.08251953125, -0.27685546875, 0.96484375
0.11572265625, -0.2529296875, 0.9638671875
0.11669921875, -0.23779296875, 0.9794921875
0.11669921875, -0.23779296875, 0.9794921875
0.115234375, -0.2294921875, 0.986328125
0.1015625, -0.25341796875, 0.94921875
0.0927734375, -0.25830078125, 0.9599609375
0.0908203125, -0.2470703125, 0.99609375
0.0908203125, -0.2470703125, 0.99609375
0.08935546875, -0.27294921875, 0.99267578125
0.08154296875, -0.28466796875, 0.96923828125
0.08251953125, -0.27685546875, 0.98095703125
0.08251953125, -0.27685546875, 0.98095703125
0.107421875, -0.26123046875, 0.98486328125
0.072265625, -0.27978515625, 0.96044921875
0.0673828125, -0.28466796875, 0.94482421875
0.060546875, -0.29052734375, 0.974609375
0.060546875, -0.29052734375, 0.974609375
0.06201171875, -0.2861328125, 1.0078125
0.080078125, -0.2763671875, 1.02001953125
0.08056640625, -0.28076171875, 1.001953125
0.08056640625, -0.28076171875, 1.001953125
0.0498046875, -0.2939453125, 0.9560546875
0.041015625, -0.30322265625, 0.95849609375
0.0703125, -0.29931640625, 0.97412109375
0.08056640625, -0.30078125, 0.97607421875
-1.34716796875, 0.02294921875, -1.18603515625
-1.39306640625, -0.185546875, -1.4228515625
-1.3505859375, -0.1513671875, -1.52490234375
-1.3505859375, -0.1513671875, -1.52490234375
-1.20751953125, -0.046875, -1.5400390625
-1.14794921875, 0.01708984375, -1.498046875
-1.0234375, 0.01904296875, -1.41015625
-0.92041015625, -0.03076171875, -1.40673828125
-0.92041015625, -0.03076171875, -1.40673828125
-0.92236328125, -0.1162109375, -1.34521484375
-0.85107421875, 0.02392578125, -1.2421875
-0.70263671875, 0.2392578125, -0.9345703125
-0.70263671875, 0.2392578125, -0.9345703125
-0.7119140625, 0.03271484375, -0.87353515625
-0.69580078125, -0.02197265625, -0.74462890625
-0.619140625, -0.0595703125, -0.4423828125
-0.619140625, -0.0595703125, -0.4423828125
-0.49169921875, -0.076171875, -0.23974609375
-0.107421875, -0.19580078125, -0.013671875
0.03466796875, -0.26025390625, 0.046875
0.15869140625, -0.4208984375, 0.10693359375
0.15869140625, -0.4208984375, 0.10693359375
0.21826171875, -0.4775390625, 0.11279296875
0.28369140625, -0.43115234375, 0.27880859375
0.45654296875, -0.435546875, 0.4404296875
0.45654296875, -0.435546875, 0.4404296875
0.55078125, -0.447265625, 0.513671875
0.703125, -0.3916015625, 0.71044921875
0.732421875, -0.36572265625, 0.7451171875
0.732421875, -0.36572265625, 0.7451171875
0.73583984375, -0.37548828125, 0.7177734375
0.70263671875, -0.35205078125, 0.6806640625
0.69970703125, -0.3603515625, 0.68017578125
0.70849609375, -0.37451171875, 0.70654296875
0.70849609375, -0.37451171875, 0.70654296875
0.720703125, -0.38037109375, 0.73583984375
0.7529296875, -0.40087890625, 0.78515625
0.75, -0.40966796875, 0.78076171875
0.75, -0.40966796875, 0.78076171875
0.7451171875, -0.40234375, 0.7275390625
0.74365234375, -0.400390625, 0.70166015625
0.7421875, -0.41552734375, 0.69287109375
0.74560546875, -0.42333984375, 0.70361328125
0.74560546875, -0.42333984375, 0.70361328125
0.7177734375, -0.451171875, 0.71435546875
0.66796875, -0.48193359375, 0.7197265625
0.6630859375, -0.490234375, 0.70703125
0.6630859375, -0.490234375, 0.70703125
0.65625, -0.4892578125, 0.58935546875
0.65087890625, -0.48291015625, 0.5126953125
0.66455078125, -0.5068359375, 0.30419921875
0.6376953125, -0.533203125, 0.21630859375
0.6376953125, -0.533203125, 0.21630859375
0.6484375, -0.54541015625, 0.203125
0.64013671875, -0.55126953125, 0.22802734375
0.634765625, -0.529296875, 0.283203125
0.634765625, -0.529296875, 0.283203125
0.6259765625, -0.51123046875, 0.263671875
0.5673828125, -0.43798828125, 0.16845703125
0.47509765625, -0.31005859375, -0.01025390625
0.4296875, -0.29150390625, -0.1552734375
0.4296875, -0.29150390625, -0.1552734375
0.267578125, -0.25341796875, -0.36376953125
0.18408203125, -0.23828125, -0.42529296875
0.06005859375, -0.32080078125, -0.52001953125
0.06005859375, -0.32080078125, -0.52001953125
0.0498046875, -0.30517578125, -0.55126953125
-0.0947265625, -0.197265625, -0.607421875
-0.32421875, -0.25830078125, -0.80029296875
-0.32421875, -0.25830078125, -0.80029296875
-0.54052734375, -0.3408203125, -0.92333984375
-0.7158203125, -0.7275390625, -1.31298828125
-0.63232421875, -0.7607421875, -1.43408203125
-0.63818359375, -0.3203125, -1.48388671875
-0.63818359375, -0.3203125, -1.48388671875
-0.64599609375, -0.193359375, -1.384765625
-0.66162109375, -0.24853515625, -1.0029296875
-0.7470703125, -0.2021484375, -0.9306640625
-0.7470703125, -0.2021484375, -0.9306640625
-0.85498046875, -0.19189453125, -0.9560546875
-0.93017578125, -0.3525390625, -1.228515625
-0.94873046875, -0.42236328125, -1.32177734375
-0.94873046875, -0.42236328125, -1.32177734375
-0.9814453125, -0.59228515625, -1.373046875
-0.9970703125, -0.611328125, -1.3271484375
-0.92822265625, -0.4912109375, -1.138671875
-0.86669921875, -0.39892578125, -1.03271484375
-0.86669921875, -0.39892578125, -1.03271484375
-0.8095703125, -0.2197265625, -0.85400390625
-0.7529296875, -0.3349609375, -0.7197265625
-0.75390625, -0.44482421875, -0.68896484375
-0.75390625, -0.44482421875, -0.68896484375
-0.77099609375, -0.58447265625, -0.68017578125
-0.76611328125, -0.578125, -0.640625
-0.73779296875, -0.52001953125, -0.533203125
-0.71923828125, -0.47314453125, -0.478515625
-0.71923828125, -0.47314453125, -0.478515625
-0.6640625, -0.388671875, -0.38427734375
-0.548828125, -0.44189453125, -0.3447265625
-0.5546875, -0.5380859375, -0.36181640625
-0.5546875, -0.5380859375, -0.36181640625
-0.54736328125, -0.5576171875, -0.38916015625
-0.525390625, -0.59375, -0.43505859375
-0.51611328125, -0.6123046875, -0.46337890625
-0.50927734375, -0.6435546875, -0.50048828125
-0.50927734375, -0.6435546875, -0.50048828125
-0.5078125, -0.65576171875, -0.51123046875
-0.52880859375, -0.66552734375, -0.50537109375
-0.54736328125, -0.6669921875, -0.48876953125
-0.54736328125, -0.6669921875, -0.48876953125
-0.57080078125, -0.66259765625, -0.46728515625
-0.56396484375, -0.66455078125, -0.46923828125
-0.568359375, -0.67822265625, -0.4794921875
-0.5830078125, -0.7421875, -0.509765625
-0.5830078125, -0.7421875, -0.509765625
-0.5810546875, -0.75341796875, -0.517578125
-0.5703125, -0.708984375, -0.4853515625
-0.55908203125, -0.67724609375, -0.4609375
-0.55908203125, -0.67724609375, -0.4609375
-1.34716796875, 0.02294921875, -1.18603515625
-1.39306640625, -0.185546875, -1.4228515625
-1.3505859375, -0.1513671875, -1.52490234375
-1.3505859375, -0.1513671875, -1.52490234375
-1.20751953125, -0.046875, -1.5400390625
-1.14794921875, 0.01708984375, -1.498046875
-1.0234375, 0.01904296875, -1.41015625
-0.92041015625, -0.03076171875, -1.40673828125
-0.92041015625, -0.03076171875, -1.40673828125
-0.92236328125, -0.1162109375, -1.34521484375
-0.85107421875, 0.02392578125, -1.2421875
-0.70263671875, 0.2392578125, -0.9345703125
-0.70263671875, 0.2392578125, -0.9345703125
-0.7119140625, 0.03271484375, -0.87353515625
-0.69580078125, -0.02197265625, -0.74462890625
-0.619140625, -0.0595703125, -0.4423828125
-0.619140625, -0.0595703125, -0.4423828125
-0.49169921875, -0.076171875, -0.23974609375
-0.107421875, -0.19580078125, -0.013671875
0.03466796875, -0.26025390625, 0.046875
0.15869140625, -0.4208984375, 0.10693359375
0.15869140625, -0.4208984375, 0.10693359375
0.21826171875, -0.4775390625, 0.11279296875
0.28369140625, -0.43115234375, 0.27880859375
0.45654296875, -0.435546875, 0.4404296875
0.45654296875, -0.435546875, 0.4404296875
0.55078125, -0.447265625, 0.513671875
0.703125, -0.3916015625, 0.71044921875
0.732421875, -0.36572265625, 0.7451171875
0.732421875, -0.36572265625, 0.7451171875
0.73583984375, -0.37548828125, 0.7177734375
0.70263671875, -0.35205078125, 0.6806640625
0.69970703125, -0.3603515625, 0.68017578125
0.70849609375, -0.37451171875, 0.70654296875
0.70849609375, -0.37451171875, 0.70654296875
0.720703125, -0.38037109375, 0.73583984375
0.7529296875, -0.40087890625, 0.78515625
0.75, -0.40966796875, 0.78076171875
0.75, -0.40966796875, 0.78076171875
0.7451171875, -0.40234375, 0.7275390625
0.74365234375, -0.400390625, 0.70166015625
0.7421875, -0.41552734375, 0.69287109375
0.74560546875, -0.42333984375, 0.70361328125
0.74560546875, -0.42333984375, 0.70361328125
0.7177734375, -0.451171875, 0.71435546875
0.66796875, -0.48193359375, 0.7197265625
0.6630859375, -0.490234375, 0.70703125
0.6630859375, -0.490234375, 0.70703125
0.65625, -0.4892578125, 0.58935546875
0.65087890625, -0.48291015625, 0.5126953125
0.66455078125, -0.5068359375, 0.30419921875
0.6376953125, -0.533203125, 0.21630859375
0.6376953125, -0.533203125, 0.21630859375
0.6484375, -0.54541015625, 0.203125
0.64013671875, -0.55126953125, 0.22802734375
0.634765625, -0.529296875, 0.283203125
0.634765625, -0.529296875, 0.283203125
0.6259765625, -0.51123046875, 0.263671875
0.5673828125, -0.43798828125, 0.16845703125
0.47509765625, -0.31005859375, -0.01025390625
0.4296875, -0.29150390625, -0.1552734375
0.4296875, -0.29150390625, -0.1552734375
0.267578125, -0.25341796875, -0.36376953125
0.18408203125, -0.23828125, -0.42529296875
0.06005859375, -0.32080078125, -0.52001953125
0.06005859375, -0.32080078125, -0.52001953125
0.0498046875, -0.30517578125, -0.55126953125
-0.0947265625, -0.197265625, -0.607421875
-0.32421875, -0.25830078125, -0.80029296875
-0.32421875, -0.25830078125, -0.80029296875
-0.54052734375, -0.3408203125, -0.92333984375
-0.7158203125, -0.7275390625, -1.31298828125
-0.63232421875, -0.7607421875, -1.43408203125
-0.63818359375, -0.3203125, -1.48388671875
-0.63818359375, -0.3203125, -1.48388671875
-0.64599609375, -0.193359375, -1.384765625
-0.66162109375, -0.24853515625, -1.0029296875
-0.7470703125, -0.2021484375, -0.9306640625
-0.7470703125, -0.2021484375, -0.9306640625
-0.85498046875, -0.19189453125, -0.9560546875
-0.93017578125, -0.3525390625, -1.228515625
-0.94873046875, -0.42236328125, -1.32177734375
-0.94873046875, -0.42236328125, -1.32177734375
-0.9814453125, -0.59228515625, -1.373046875
-0.9970703125, -0.611328125, -1.3271484375
-0.92822265625, -0.4912109375, -1.138671875
-0.86669921875, -0.39892578125, -1.03271484375
-0.86669921875, -0.39892578125, -1.03271484375
-0.8095703125, -0.2197265625, -0.85400390625
-0.7529296875, -0.3349609375, -0.7197265625
-0.75390625, -0.44482421875, -0.68896484375
-0.75390625, -0.44482421875, -0.68896484375
-0.77099609375, -0.58447265625, -0.68017578125
-0.76611328125, -0.578125, -0.640625
-0.73779296875, -0.52001953125, -0.533203125
-0.71923828125, -0.47314453125, -0.478515625
-0.71923828125, -0.47314453125, -0.478515625
-0.6640625, -0.388671875, -0.38427734375
-0.548828125, -0.44189453125, -0.3447265625
-0.5546875, -0.5380859375, -0.36181640625
-0.5546875, -0.5380859375, -0.36181640625
-0.54736328125, -0.5576171875, -0.38916015625
-0.525390625, -0.59375, -0.43505859375
-0.51611328125, -0.6123046875, -0.46337890625
-0.50927734375, -0.6435546875, -0.50048828125
-0.50927734375, -0.6435546875, -0.50048828125
-0.5078125, -0.65576171875, -0.51123046875
-0.52880859375, -0.66552734375, -0.50537109375
-0.54736328125, -0.6669921875, -0.48876953125
-0.54736328125, -0.6669921875, -0.48876953125
-0.57080078125, -0.66259765625, -0.46728515625
-0.56396484375, -0.66455078125, -0.46923828125
-0.568359375, -0.67822265625, -0.4794921875
-0.5830078125, -0.7421875, -0.509765625
-0.5830078125, -0.7421875, -0.509765625
-0.5810546875, -0.75341796875, -0.517578125
-0.5703125, -0.708984375, -0.4853515625
-0.55908203125, -0.67724609375, -0.4609375
-0.55908203125, -0.67724609375, -0.4609375
-1.34716796875, 0.02294921875, -1.18603515625
-1.39306640625, -0.185546875, -1.4228515625
-1.3505859375, -0.1513671875, -1.52490234375
-1.3505859375, -0.1513671875, -1.52490234375
-1.20751953125, -0.046875, -1.5400390625
-1.14794921875, 0.01708984375, -1.498046875
-1.0234375, 0.01904296875, -1.41015625
-0.92041015625, -0.03076171875, -1.40673828125
-0.92041015625, -0.03076171875, -1.40673828125
-0.92236328125, -0.1162109375, -1.34521484375
-0.85107421875, 0.02392578125, -1.2421875
-0.70263671875, 0.2392578125, -0.9345703125
-0.70263671875, 0.2392578125, -0.9345703125
-0.7119140625, 0.03271484375, -0.87353515625
-0.69580078125, -0.02197265625, -0.74462890625
-0.619140625, -0.0595703125, -0.4423828125
-0.619140625, -0.0595703125, -0.4423828125
-0.49169921875, -0.076171875, -0.23974609375
-0.107421875, -0.19580078125, -0.013671875
0.03466796875, -0.26025390625, 0.046875
0.15869140625, -0.4208984375, 0.10693359375
0.15869140625, -0.4208984375, 0.10693359375
0.21826171875, -0.4775390625, 0.11279296875
0.28369140625, -0.43115234375, 0.27880859375
0.45654296875, -0.435546875, 0.4404296875
0.45654296875, -0.435546875, 0.4404296875
0.55078125, -0.447265625, 0.513671875
0.703125, -0.3916015625, 0.71044921875
0.732421875, -0.36572265625, 0.7451171875
0.732421875, -0.36572265625, 0.7451171875
0.73583984375, -0.37548828125, 0.7177734375
0.70263671875, -0.35205078125, 0.6806640625
0.69970703125, -0.3603515625, 0.68017578125
0.70849609375, -0.37451171875, 0.70654296875
0.70849609375, -0.37451171875, 0.70654296875
0.720703125, -0.38037109375, 0.73583984375
0.7529296875, -0.40087890625, 0.78515625
0.75, -0.40966796875, 0.78076171875
0.75, -0.40966796875, 0.78076171875
0.7451171875, -0.40234375, 0.7275390625
0.74365234375, -0.400390625, 0.70166015625
0.7421875, -0.41552734375, 0.69287109375
0.74560546875, -0.42333984375, 0.70361328125
0.74560546875, -0.42333984375, 0.70361328125
0.7177734375, -0.451171875, 0.71435546875
0.66796875, -0.48193359375, 0.7197265625
0.6630859375, -0.490234375, 0.70703125
0.6630859375, -0.490234375, 0.70703125
0.65625, -0.4892578125, 0.58935546875
0.65087890625, -0.48291015625, 0.5126953125
0.66455078125, -0.5068359375, 0.30419921875
0.6376953125, -0.533203125, 0.21630859375
0.6376953125, -0.533203125, 0.21630859375
0.6484375, -0.54541015625, 0.203125
0.64013671875, -0.55126953125, 0.22802734375
0.634765625, -0.529296875, 0.283203125
0.634765625, -0.529296875, 0.283203125
0.6259765625, -0.51123046875, 0.263671875
0.5673828125, -0.43798828125, 0.16845703125
0.47509765625, -0.31005859375, -0.01025390625
0.4296875, -0.29150390625, -0.1552734375
0.4296875, -0.29150390625, -0.1552734375
0.267578125, -0.25341796875, -0.36376953125
0.18408203125, -0.23828125, -0.42529296875
0.06005859375, -0.32080078125, -0.52001953125
0.06005859375, -0.32080078125, -0.52001953125
0.0498046875, -0.30517578125, -0.55126953125
-0.0947265625, -0.197265625, -0.607421875
-0.32421875, -0.25830078125, -0.80029296875
-0.32421875, -0.25830078125, -0.80029296875
-0.54052734375, -0.3408203125, -0.92333984375
-0.7158203125, -0.7275390625, -1.31298828125
-0.63232421875, -0.7607421875, -1.43408203125
-0.63818359375, -0.3203125, -1.48388671875
-0.63818359375, -0.3203125, -1.48388671875
-0.64599609375, -0.193359375, -1.384765625
-0.66162109375, -0.24853515625, -1.0029296875
-0.7470703125, -0.2021484375, -0.9306640625
-0.7470703125, -0.2021484375, -0.9306640625
-0.85498046875, -0.19189453125, -0.9560546875
-0.93017578125, -0.3525390625, -1.228515625
-0.94873046875, -0.42236328125, -1.32177734375
-0.94873046875, -0.42236328125, -1.32177734375
-0.9814453125, -0.59228515625, -1.373046875
-0.9970703125, -0.611328125, -1.3271484375
-0.92822265625, -0.4912109375, -1.138671875
-0.86669921875, -0.39892578125, -1.03271484375
-0.86669921875, -0.39892578125, -1.03271484375
-0.8095703125, -0.2197265625, -0.85400390625
-0.7529296875, -0.3349609375, -0.7197265625
-0.75390625, -0.44482421875, -0.68896484375
-0.75390625, -0.44482421875, -0.68896484375
-0.77099609375, -0.58447265625, -0.68017578125
-0.76611328125, -0.578125, -0.640625
-0.73779296875, -0.52001953125, -0.533203125
-0.71923828125, -0.47314453125, -0.478515625
-0.71923828125, -0.47314453125, -0.478515625
-0.6640625, -0.388671875, -0.38427734375
-0.548828125, -0.44189453125, -0.3447265625
-0.5546875, -0.5380859375, -0.36181640625
-0.5546875, -0.5380859375, -0.36181640625
-0.54736328125, -0.5576171875, -0.38916015625
-0.525390625, -0.59375, -0.43505859375
-0.51611328125, -0.6123046875, -0.46337890625
-0.50927734375, -0.6435546875, -0.50048828125
-0.50927734375, -0.6435546875, -0.50048828125
-0.5078125, -0.65576171875, -0.51123046875
-0.52880859375, -0.66552734375, -0.50537109375
-0.54736328125, -0.6669921875, -0.48876953125
-0.54736328125, -0.6669921875, -0.48876953125
-0.57080078125, -0.66259765625, -0.46728515625
-0.56396484375, -0.66455078125, -0.46923828125
-0.568359375, -0.67822265625, -0.4794921875
-0.5830078125, -0.7421875, -0.509765625
-0.5830078125, -0.7421875, -0.509765625
-0.5810546875, -0.75341796875, -0.517578125
-0.5703125, -0.708984375, -0.4853515625
-0.55908203125, -0.67724609375, -0.4609375
-0.55908203125, -0.67724609375, -0.4609375
-1.34716796875, 0.02294921875, -1.18603515625
-1.39306640625, -0.185546875, -1.4228515625
-1.3505859375, -0.1513671875, -1.52490234375
-1.3505859375, -0.1513671875, -1.52490234375
-1.20751953125, -0.046875, -1.5400390625
-1.14794921875, 0.01708984375, -1.498046875
-1.0234375, 0.01904296875, -1.41015625
-0.92041015625, -0.03076171875, -1.40673828125
-0.92041015625, -0.03076171875, -1.40673828125
-0.92236328125, -0.1162109375, -1.34521484375
-0.85107421875, 0.02392578125, -1.2421875
-0.70263671875, 0.2392578125, -0.9345703125
-0.70263671875, 0.2392578125, -0.9345703125
-0.7119140625, 0.03271484375, -0.87353515625
-0.69580078125, -0.02197265625, -0.74462890625
-0.619140625, -0.0595703125, -0.4423828125
-0.619140625, -0.0595703125, -0.4423828125
-0.49169921875, -0.076171875, -0.23974609375
-0.107421875, -0.19580078125, -0.013671875
0.03466796875, -0.26025390625, 0.046875
0.15869140625, -0.4208984375, 0.10693359375
0.15869140625, -0.4208984375, 0.10693359375
0.21826171875, -0.4775390625, 0.11279296875
0.28369140625, -0.43115234375, 0.27880859375
0.45654296875, -0.435546875, 0.4404296875
0.45654296875, -0.435546875, 0.4404296875
0.55078125, -0.447265625, 0.513671875
0.703125, -0.3916015625, 0.71044921875
0.732421875, -0.36572265625, 0.7451171875
0.732421875, -0.36572265625, 0.7451171875
0.73583984375, -0.37548828125, 0.7177734375
0.70263671875, -0.35205078125, 0.6806640625
0.69970703125, -0.3603515625, 0.68017578125
0.70849609375, -0.37451171875, 0.70654296875
0.70849609375, -0.37451171875, 0.70654296875
0.720703125, -0.38037109375, 0.73583984375
0.7529296875, -0.40087890625, 0.78515625
0.75, -0.40966796875, 0.78076171875
0.75, -0.40966796875, 0.78076171875
0.7451171875, -0.40234375, 0.7275390625
0.74365234375, -0.400390625, 0.70166015625
0.7421875, -0.41552734375, 0.69287109375
0.74560546875, -0.42333984375, 0.70361328125
0.74560546875, -0.42333984375, 0.70361328125
0.7177734375, -0.451171875, 0.71435546875
0.66796875, -0.48193359375, 0.7197265625
0.6630859375, -0.490234375, 0.70703125
0.6630859375, -0.490234375, 0.70703125
0.65625, -0.4892578125, 0.58935546875
0.65087890625, -0.48291015625, 0.5126953125
0.66455078125, -0.5068359375, 0.30419921875
0.6376953125, -0.533203125, 0.21630859375
0.6376953125, -0.533203125, 0.21630859375
0.6484375, -0.54541015625, 0.203125
0.64013671875, -0.55126953125, 0.22802734375
0.634765625, -0.529296875, 0.283203125
0.634765625, -0.529296875, 0.283203125
0.6259765625, -0.51123046875, 0.263671875
0.5673828125, -0.43798828125, 0.16845703125
0.47509765625, -0.31005859375, -0.01025390625
0.4296875, -0.29150390625, -0.1552734375
0.4296875, -0.29150390625, -0.1552734375
0.267578125, -0.25341796875, -0.36376953125
0.18408203125, -0.23828125, -0.42529296875
0.06005859375, -0.32080078125, -0.52001953125
0.06005859375, -0.32080078125, -0.52001953125
0.0498046875, -0.30517578125, -0.55126953125
-0.0947265625, -0.197265625, -0.607421875
-0.32421875, -0.25830078125, -0.80029296875
-0.32421875, -0.25830078125, -0.80029296875
-0.54052734375, -0.3408203125, -0.92333984375
-0.7158203125, -0.7275390625, -1.31298828125
-0.63232421875, -0.7607421875, -1.43408203125
-0.63818359375, -0.3203125, -1.48388671875
-0.63818359375, -0.3203125, -1.48388671875
-0.64599609375, -0.193359375, -1.384765625
-0.66162109375, -0.24853515625, -1.0029296875
-0.7470703125, -0.2021484375, -0.9306640625
-0.7470703125, -0.2021484375, -0.9306640625
-0.85498046875, -0.19189453125, -0.9560546875
-0.93017578125, -0.3525390625, -1.228515625
-0.94873046875, -0.42236328125, -1.32177734375
-0.94873046875, -0.42236328125, -1.32177734375
-0.9814453125, -0.59228515625, -1.373046875
-0.9970703125, -0.611328125, -1.3271484375
-0.92822265625, -0.4912109375, -1.138671875
-0.86669921875, -0.39892578125, -1.03271484375
-0.86669921875, -0.39892578125, -1.03271484375
-0.8095703125, -0.2197265625, -0.85400390625
-0.7529296875, -0.3349609375, -0.7197265625
-0.75390625, -0.44482421875, -0.68896484375
-0.75390625, -0.44482421875, -0.68896484375
-0.77099609375, -0.58447265625, -0.68017578125
-0.76611328125, -0.578125, -0.640625
-0.73779296875, -0.52001953125, -0.533203125
-0.71923828125, -0.47314453125, -0.478515625
-0.71923828125, -0.47314453125, -0.478515625
-0.6640625, -0.388671875, -0.38427734375
-0.548828125, -0.44189453125, -0.3447265625
-0.5546875, -0.5380859375, -0.36181640625
-0.5546875, -0.5380859375, -0.36181640625
-0.54736328125, -0.5576171875, -0.38916015625
-0.525390625, -0.59375, -0.43505859375
-0.51611328125, -0.6123046875, -0.46337890625
-0.50927734375, -0.6435546875, -0.50048828125
-0.50927734375, -0.6435546875, -0.50048828125
-0.5078125, -0.65576171875, -0.51123046875
-0.52880859375, -0.66552734375, -0.50537109375
-0.54736328125, -0.6669921875, -0.48876953125
-0.54736328125, -0.6669921875, -0.48876953125
-0.57080078125, -0.66259765625, -0.46728515625
-0.56396484375, -0.66455078125, -0.46923828125
-0.568359375, -0.67822265625, -0.4794921875
-0.5830078125, -0.7421875, -0.509765625
-0.5830078125, -0.7421875, -0.509765625
-0.5810546875, -0.75341796875, -0.517578125
-0.5703125, -0.708984375, -0.4853515625
-0.55908203125, -0.67724609375, -0.4609375
-0.55908203125, -0.67724609375, -0.4609375
-1.34716796875, 0.02294921875, -1.18603515625
-1.39306640625, -0.185546875, -1.4228515625
-1.3505859375, -0.1513671875, -1.52490234375
-1.3505859375, -0.1513671875, -1.52490234375
-1.20751953125, -0.046875, -1.5400390625
-1.14794921875, 0.01708984375, -1.498046875
-1.0234375, 0.01904296875, -1.41015625
-0.92041015625, -0.03076171875, -1.40673828125
-0.92041015625, -0.03076171875, -1.40673828125
-0.92236328125, -0.1162109375, -1.34521484375
-0.85107421875, 0.02392578125, -1.2421875
-0.70263671875, 0.2392578125, -0.9345703125
-0.70263671875, 0.2392578125, -0.9345703125
-0.7119140625, 0.03271484375, -0.87353515625
-0.69580078125, -0.02197265625, -0.74462890625
-0.619140625, -0.0595703125, -0.4423828125
-0.619140625, -0.0595703125, -0.4423828125
-0.49169921875, -0.076171875, -0.23974609375
-0.107421875, -0.19580078125, -0.013671875
0.03466796875, -0.26025390625, 0.046875
0.15869140625, -0.4208984375, 0.10693359375
0.15869140625, -0.4208984375, 0.10693359375
0.21826171875, -0.4775390625, 0.11279296875
0.28369140625, -0.43115234375, 0.27880859375
0.45654296875, -0.435546875, 0.4404296875
0.45654296875, -0.435546875, 0.4404296875
0.55078125, -0.447265625, 0.513671875
0.703125, -0.3916015625, 0.71044921875
0.732421875, -0.36572265625, 0.7451171875
0.732421875, -0.36572265625, 0.7451171875
0.73583984375, -0.37548828125, 0.7177734375
0.70263671875, -0.35205078125, 0.6806640625
0.69970703125, -0.3603515625, 0.68017578125
0.70849609375, -0.37451171875, 0.70654296875
0.70849609375, -0.37451171875, 0.70654296875
0.720703125, -0.38037109375, 0.73583984375
0.7529296875, -0.40087890625, 0.78515625
0.75, -0.40966796875, 0.78076171875
0.75, -0.40966796875, 0.78076171875
0.7451171875, -0.40234375, 0.7275390625
0.74365234375, -0.400390625, 0.70166015625
0.7421875, -0.41552734375, 0.69287109375
0.74560546875, -0.42333984375, 0.70361328125
0.74560546875, -0.42333984375, 0.70361328125
0.7177734375, -0.451171875, 0.71435546875
0.66796875, -0.48193359375, 0.7197265625
0.6630859375, -0.490234375, 0.70703125
0.6630859375, -0.490234375, 0.70703125
0.65625, -0.4892578125, 0.58935546875
0.65087890625, -0.48291015625, 0.5126953125
0.66455078125, -0.5068359375, 0.30419921875
0.6376953125, -0.533203125, 0.21630859375
0.6376953125, -0.533203125, 0.21630859375
0.6484375, -0.54541015625, 0.203125
0.64013671875, -0.55126953125, 0.22802734375
0.634765625, -0.529296875, 0.283203125
0.634765625, -0.529296875, 0.283203125
0.6259765625, -0.51123046875, 0.263671875
0.5673828125, -0.43798828125, 0.16845703125
0.47509765625, -0.31005859375, -0.01025390625
0.4296875, -0.29150390625, -0.1552734375
0.4296875, -0.29150390625, -0.1552734375
0.267578125, -0.25341796875, -0.36376953125
0.18408203125, -0.23828125, -0.42529296875
0.06005859375, -0.32080078125, -0.52001953125
0.06005859375, -0.32080078125, -0.52001953125
0.0498046875, -0.30517578125, -0.55126953125
-0.0947265625, -0.197265625, -0.607421875
-0.32421875, -0.25830078125, -0.80029296875
-0.32421875, -0.25830078125, -0.80029296875
-0.54052734375, -0.3408203125, -0.92333984375
-0.7158203125, -0.7275390625, -1.31298828125
-0.63232421875, -0.7607421875, -1.43408203125
-0.63818359375, -0.3203125, -1.48388671875
-0.63818359375, -0.3203125, -1.48388671875
-0.64599609375, -0.193359375, -1.384765625
-0.66162109375, -0.24853515625, -1.0029296875
-0.7470703125, -0.2021484375, -0.9306640625
-0.7470703125, -0.2021484375, -0.9306640625
-0.85498046875, -0.19189453125, -0.9560546875
-0.93017578125, -0.3525390625, -1.228515625
-0.94873046875, -0.42236328125, -1.32177734375
-0.94873046875, -0.42236328125, -1.32177734375
-0.9814453125, -0.59228515625, -1.373046875
-0.9970703125, -0.611328125, -1.3271484375
-0.92822265625, -0.4912109375, -1.138671875
-0.86669921875, -0.39892578125, -1.03271484375
-0.86669921875, -0.39892578125, -1.03271484375
-0.8095703125, -0.2197265625, -0.85400390625
-0.7529296875, -0.3349609375, -0.7197265625
-0.75390625, -0.44482421875, -0.68896484375
-0.75390625, -0.44482421875, -0.68896484375
-0.77099609375, -0.58447265625, -0.68017578125
-0.76611328125, -0.578125, -0.640625
-0.73779296875, -0.52001953125, -0.533203125
-0.71923828125, -0.47314453125, -0.478515625
-0.71923828125, -0.47314453125, -0.478515625
-0.6640625, -0.388671875, -0.38427734375
-0.548828125, -0.44189453125, -0.3447265625
-0.5546875, -0.5380859375, -0.36181640625
-0.5546875, -0.5380859375, -0.36181640625
-0.54736328125, -0.5576171875, -0.38916015625
-0.525390625, -0.59375, -0.43505859375
-0.51611328125, -0.6123046875, -0.46337890625
-0.50927734375, -0.6435546875, -0.50048828125
-0.50927734375, -0.6435546875, -0.50048828125
-0.5078125, -0.65576171875, -0.51123046875
-0.52880859375, -0.66552734375, -0.50537109375
-0.54736328125, -0.6669921875, -0.48876953125
-0.54736328125, -0.6669921875, -0.48876953125
-0.57080078125, -0.66259765625, -0.46728515625
-0.56396484375, -0.66455078125, -0.46923828125
-0.568359375, -0.67822265625, -0.4794921875
-0.5830078125, -0.7421875, -0.509765625
-0.5830078125, -0.7421875, -0.509765625
-0.5810546875, -0.75341796875, -0.517578125
-0.5703125, -0.708984375, -0.4853515625
-0.55908203125, -0.67724609375, -0.4609375
-0.55908203125, -0.67724609375, -0.4609375
-1.34716796875, 0.02294921875, -1.18603515625
-1.39306640625, -0.185546875, -1.4228515625
-1.3505859375, -0.1513671875, -1.52490234375
-1.3505859375, -0.1513671875, -1.52490234375
-1.20751953125, -0.046875, -1.5400390625
-1.14794921875, 0.01708984375, -1.498046875
-1.0234375, 0.01904296875, -1.41015625
-0.92041015625, -0.03076171875, -1.40673828125
-0.92041015625, -0.03076171875, -1.40673828125
-0.92236328125, -0.1162109375, -1.34521484375
-0.85107421875, 0.02392578125, -1.2421875
-0.70263671875, 0.2392578125, -0.9345703125
-0.70263671875, 0.2392578125, -0.9345703125
-0.7119140625, 0.03271484375, -0.87353515625
-0.69580078125, -0.02197265625, -0.74462890625
-0.619140625, -0.0595703125, -0.4423828125
-0.619140625, -0.0595703125, -0.4423828125
-0.49169921875, -0.076171875, -0.23974609375
-0.107421875, -0.19580078125, -0.013671875
0.03466796875, -0.26025390625, 0.046875
0.15869140625, -0.4208984375, 0.10693359375
0.15869140625, -0.4208984375, 0.10693359375
0.21826171875, -0.4775390625, 0.11279296875
0.28369140625, -0.43115234375, 0.27880859375
0.45654296875, -0.435546875, 0.4404296875
0.45654296875, -0.435546875, 0.4404296875
0.55078125, -0.447265625, 0.513671875
0.703125, -0.3916015625, 0.71044921875
0.732421875, -0.36572265625, 0.7451171875
0.732421875, -0.36572265625, 0.7451171875
0.73583984375, -0.37548828125, 0.7177734375
0.70263671875, -0.35205078125, 0.6806640625
0.69970703125, -0.3603515625, 0.68017578125
0.70849609375, -0.37451171875, 0.70654296875
0.70849609375, -0.37451171875, 0.70654296875
0.720703125, -0.38037109375, 0.73583984375
0.7529296875, -0.40087890625, 0.78515625
0.75, -0.40966796875, 0.78076171875
0.75, -0.40966796875, 0.78076171875
0.7451171875, -0.40234375, 0.7275390625
0.74365234375, -0.400390625, 0.70166015625
0.7421875, -0.41552734375, 0.69287109375
0.74560546875, -0.42333984375, 0.70361328125
0.74560546875, -0.42333984375, 0.70361328125
0.7177734375, -0.451171875, 0.71435546875
0.66796875, -0.48193359375, 0.7197265625
0.6630859375, -0.490234375, 0.70703125
0.6630859375, -0.490234375, 0.70703125
0.65625, -0.4892578125, 0.58935546875
0.65087890625, -0.48291015625, 0.5126953125
0.66455078125, -0.5068359375, 0.30419921875
0.6376953125, -0.533203125, 0.21630859375
0.6376953125, -0.533203125, 0.21630859375
0.6484375, -0.54541015625, 0.203125
0.64013671875, -0.55126953125, 0.22802734375
0.634765625, -0.529296875, 0.283203125
0.634765625, -0.529296875, 0.283203125
0.6259765625, -0.51123046875, 0.263671875
0.5673828125, -0.43798828125, 0.16845703125
0.47509765625, -0.31005859375, -0.01025390625
0.4296875, -0.29150390625, -0.1552734375
0.4296875, -0.29150390625, -0.1552734375
0.267578125, -0.25341796875, -0.36376953125
0.18408203125, -0.23828125, -0.42529296875
0.06005859375, -0.32080078125, -0.52001953125
0.06005859375, -0.32080078125, -0.52001953125
0.0498046875, -0.30517578125, -0.55126953125
-0.0947265625, -0.197265625, -0.607421875
-0.32421875, -0.25830078125, -0.80029296875
-0.32421875, -0.25830078125, -0.80029296875
-0.54052734375, -0.3408203125, -0.92333984375
-0.7158203125, -0.7275390625, -1.31298828125
-0.63232421875, -0.7607421875, -1.43408203125
-0.63818359375, -0.3203125, -1.48388671875
-0.63818359375, -0.3203125, -1.48388671875
-0.64599609375, -0.193359375, -1.384765625
-0.66162109375, -0.24853515625, -1.0029296875
-0.7470703125, -0.2021484375, -0.9306640625
-0.7470703125, -0.2021484375, -0.9306640625
-0.85498046875, -0.19189453125, -0.9560546875
-0.93017578125, -0.3525390625, -1.228515625
-0.94873046875, -0.42236328125, -1.32177734375
-0.94873046875, -0.42236328125, -1.32177734375
-0.9814453125, -0.59228515625, -1.373046875
-0.9970703125, -0.611328125, -1.3271484375
-0.92822265625, -0.4912109375, -1.138671875
-0.86669921875, -0.39892578125, -1.03271484375
-0.86669921875, -0.39892578125, -1.03271484375
-0.8095703125, -0.2197265625, -0.85400390625
-0.7529296875, -0.3349609375, -0.7197265625
-0.75390625, -0.44482421875, -0.68896484375
-0.75390625, -0.44482421875, -0.68896484375
-0.77099609375, -0.58447265625, -0.68017578125
-0.76611328125, -0.578125, -0.640625
-0.73779296875, -0.52001953125, -0.533203125
-0.71923828125, -0.47314453125, -0.478515625
-0.71923828125, -0.47314453125, -0.478515625
-0.6640625, -0.388671875, -0.38427734375
-0.548828125, -0.44189453125, -0.3447265625
-0.5546875, -0.5380859375, -0.36181640625
-0.5546875, -0.5380859375, -0.36181640625
-0.54736328125, -0.5576171875, -0.38916015625
-0.525390625, -0.59375, -0.43505859375
-0.51611328125, -0.6123046875, -0.46337890625
-0.50927734375, -0.6435546875, -0.50048828125
-0.50927734375, -0.6435546875, -0.50048828125
-0.5078125, -0.65576171875, -0.51123046875
-0.52880859375, -0.66552734375, -0.50537109375
-0.54736328125, -0.6669921875, -0.48876953125
-0.54736328125, -0.6669921875, -0.48876953125
-0.57080078125, -0.66259765625, -0.46728515625
-0.56396484375, -0.66455078125, -0.46923828125
-0.568359375, -0.67822265625, -0.4794921875
-0.5830078125, -0.7421875, -0.509765625
-0.5830078125, -0.7421875, -0.509765625
-0.5810546875, -0.75341796875, -0.517578125
-0.5703125, -0.708984375, -0.4853515625
-0.55908203125, -0.67724609375, -0.4609375
-0.55908203125, -0.67724609375, -0.4609375
-1.34716796875, 0.02294921875, -1.18603515625
-1.39306640625, -0.185546875, -1.4228515625
-1.3505859375, -0.1513671875, -1.52490234375
-1.3505859375, -0.1513671875, -1.52490234375
-1.20751953125, -0.046875, -1.5400390625
-1.14794921875, 0.01708984375, -1.498046875
-1.0234375, 0.01904296875, -1.41015625
-0.92041015625, -0.03076171875, -1.40673828125
-0.92041015625, -0.03076171875, -1.40673828125
-0.92236328125, -0.1162109375, -1.34521484375
-0.85107421875, 0.02392578125, -1.2421875
-0.70263671875, 0.2392578125, -0.9345703125
-0.70263671875, 0.2392578125, -0.9345703125
-0.7119140625, 0.03271484375, -0.87353515625
-0.69580078125, -0.02197265625, -0.74462890625
-0.619140625, -0.0595703125, -0.4423828125
-0.619140625, -0.0595703125, -0.4423828125
-0.49169921875, -0.076171875, -0.23974609375
-0.107421875, -0.19580078125, -0.013671875
0.03466796875, -0.26025390625, 0.046875
0.15869140625, -0.4208984375, 0.10693359375
0.15869140625, -0.4208984375, 0.10693359375
0.21826171875, -0.4775390625, 0.11279296875
0.28369140625, -0.43115234375, 0.27880859375
0.45654296875, -0.435546875, 0.4404296875
0.45654296875, -0.435546875, 0.4404296875
0.55078125, -0.447265625, 0.513671875
0.703125, -0.3916015625, 0.71044921875
0.732421875, -0.36572265625, 0.7451171875
0.732421875, -0.36572265625, 0.7451171875
0.73583984375, -0.37548828125, 0.7177734375
0.70263671875, -0.35205078125, 0.6806640625
0.69970703125, -0.3603515625, 0.68017578125
0.70849609375, -0.37451171875, 0.70654296875
0.70849609375, -0.37451171875, 0.70654296875
0.720703125, -0.38037109375, 0.73583984375
0.7529296875, -0.40087890625, 0.78515625
0.75, -0.40966796875, 0.78076171875
0.75, -0.40966796875, 0.78076171875
0.7451171875, -0.40234375, 0.7275390625
0.74365234375, -0.400390625, 0.70166015625
0.7421875, -0.41552734375, 0.69287109375
0.74560546875, -0.42333984375, 0.70361328125
0.74560546875, -0.42333984375, 0.70361328125
0.7177734375, -0.451171875, 0.71435546875
0.66796875, -0.48193359375, 0.7197265625
0.6630859375, -0.490234375, 0.70703125
0.6630859375, -0.490234375, 0.70703125
0.65625, -0.4892578125, 0.58935546875
0.65087890625, -0.48291015625, 0.5126953125
0.66455078125, -0.5068359375, 0.30419921875
0.6376953125, -0.533203125, 0.21630859375
0.6376953125, -0.533203125, 0.21630859375
0.6484375, -0.54541015625, 0.203125
0.64013671875, -0.55126953125, 0.22802734375
0.634765625, -0.529296875, 0.283203125
0.634765625, -0.529296875, 0.283203125
0.6259765625, -0.51123046875, 0.263671875
0.5673828125, -0.43798828125, 0.16845703125
0.47509765625, -0.31005859375, -0.01025390625
0.4296875, -0.29150390625, -0.1552734375
0.4296875, -0.29150390625, -0.1552734375
0.267578125, -0.25341796875, -0.36376953125
0.18408203125, -0.23828125, -0.42529296875
0.06005859375, -0.32080078125, -0.52001953125
0.06005859375, -0.32080078125, -0.52001953125
0.0498046875, -0.30517578125, -0.55126953125
-0.0947265625, -0.197265625, -0.607421875
-0.32421875, -0.25830078125, -0.80029296875
-0.32421875, -0.25830078125, -0.80029296875
-0.54052734375, -0.3408203125, -0.92333984375
-0.7158203125, -0.7275390625, -1.31298828125
-0.63232421875, -0.7607421875, -1.43408203125
-0.63818359375, -0.3203125, -1.48388671875
-0.63818359375, -0.3203125, -1.48388671875
-0.64599609375, -0.193359375, -1.384765625
-0.66162109375, -0.24853515625, -1.0029296875
-0.7470703125, -0.2021484375, -0.9306640625
-0.7470703125, -0.2021484375, -0.9306640625
-0.85498046875, -0.19189453125, -0.9560546875
-0.93017578125, -0.3525390625, -1.228515625
-0.94873046875, -0.42236328125, -1.32177734375
-0.94873046875, -0.42236328125, -1.32177734375
-0.9814453125, -0.59228515625, -1.373046875
-0.9970703125, -0.611328125, -1.3271484375
-0.92822265625, -0.4912109375, -1.138671875
-0.86669921875, -0.39892578125, -1.03271484375
-0.86669921875, -0.39892578125, -1.03271484375
-0.8095703125, -0.2197265625, -0.85400390625
-0.7529296875, -0.3349609375, -0.7197265625
-0.75390625, -0.44482421875, -0.68896484375
-0.75390625, -0.44482421875, -0.68896484375
-0.77099609375, -0.58447265625, -0.68017578125
-0.76611328125, -0.578125, -0.640625
-0.73779296875, -0.52001953125, -0.533203125
-0.71923828125, -0.47314453125, -0.478515625
-0.71923828125, -0.47314453125, -0.478515625
-0.6640625, -0.388671875, -0.38427734375
-0.548828125, -0.44189453125, -0.3447265625
-0.5546875, -0.5380859375, -0.36181640625
-0.5546875, -0.5380859375, -0.36181640625
-0.54736328125, -0.5576171875, -0.38916015625
-0.525390625, -0.59375, -0.43505859375
-0.51611328125, -0.6123046875, -0.46337890625
-0.50927734375, -0.6435546875, -0.50048828125
-0.50927734375, -0.6435546875, -0.50048828125
-0.5078125, -0.65576171875, -0.51123046875
-0.52880859375, -0.66552734375, -0.50537109375
-0.54736328125, -0.6669921875, -0.48876953125
-0.54736328125, -0.6669921875, -0.48876953125
-0.57080078125, -0.66259765625, -0.46728515625
-0.56396484375, -0.66455078125, -0.46923828125
-0.568359375, -0.67822265625, -0.4794921875
-0.5830078125, -0.7421875, -0.509765625
-0.5830078125, -0.7421875, -0.509765625
-0.5810546875, -0.75341796875, -0.517578125
-0.5703125, -0.708984375, -0.4853515625
-0.55908203125, -0.67724609375, -0.4609375
-0.55908203125, -0.67724609375, -0.4609375
-1.34716796875, 0.02294921875, -1.18603515625
-1.39306640625, -0.185546875, -1.4228515625
-1.3505859375, -0.1513671875, -1.52490234375
-1.3505859375, -0.1513671875, -1.52490234375
-1.20751953125, -0.046875, -1.5400390625
-1.14794921875, 0.01708984375, -1.498046875
-1.0234375, 0.01904296875, -1.41015625
-0.92041015625, -0.03076171875, -1.40673828125
-0.92041015625, -0.03076171875, -1.40673828125
-0.92236328125, -0.1162109375, -1.34521484375
-0.85107421875, 0.02392578125, -1.2421875
-0.70263671875, 0.2392578125, -0.9345703125
-0.70263671875, 0.2392578125, -0.9345703125
-0.7119140625, 0.03271484375, -0.87353515625
-0.69580078125, -0.02197265625, -0.74462890625
-0.619140625, -0.0595703125, -0.4423828125
-0.619140625, -0.0595703125, -0.4423828125
-0.49169921875, -0.076171875, -0.23974609375
-0.107421875, -0.19580078125, -0.013671875
0.03466796875, -0.26025390625, 0.046875
0.15869140625, -0.4208984375, 0.10693359375
0.15869140625, -0.4208984375, 0.10693359375
0.21826171875, -0.4775390625, 0.11279296875
0.28369140625, -0.43115234375, 0.27880859375
0.45654296875, -0.435546875, 0.4404296875
0.45654296875, -0.435546875, 0.4404296875
0.55078125, -0.447265625, 0.513671875
0.703125, -0.3916015625, 0.71044921875
0.732421875, -0.36572265625, 0.7451171875
0.732421875, -0.36572265625, 0.7451171875
0.73583984375, -0.37548828125, 0.7177734375
0.70263671875, -0.35205078125, 0.6806640625
0.69970703125, -0.3603515625, 0.68017578125
0.70849609375, -0.37451171875, 0.70654296875
0.70849609375, -0.37451171875, 0.70654296875
0.720703125, -0.38037109375, 0.73583984375
0.7529296875, -0.40087890625, 0.78515625
0.75, -0.40966796875, 0.78076171875
0.75, -0.40966796875, 0.78076171875
0.7451171875, -0.40234375, 0.7275390625
0.74365234375, -0.400390625, 0.70166015625
0.7421875, -0.41552734375, 0.69287109375
0.74560546875, -0.42333984375, 0.70361328125
0.74560546875, -0.42333984375, 0.70361328125
0.7177734375, -0.451171875, 0.71435546875
0.66796875, -0.48193359375, 0.7197265625
0.6630859375, -0.490234375, 0.70703125
0.6630859375, -0.490234375, 0.70703125
0.65625, -0.4892578125, 0.58935546875
0.65087890625, -0.48291015625, 0.5126953125
0.66455078125, -0.5068359375, 0.30419921875
0.6376953125, -0.533203125, 0.21630859375
0.6376953125, -0.533203125, 0.21630859375
0.6484375, -0.54541015625, 0.203125
0.64013671875, -0.55126953125, 0.22802734375
0.634765625, -0.529296875, 0.283203125
0.634765625, -0.529296875, 0.283203125
0.6259765625, -0.51123046875, 0.263671875
0.5673828125, -0.43798828125, 0.16845703125
0.47509765625, -0.31005859375, -0.01025390625
0.4296875, -0.29150390625, -0.1552734375
0.4296875, -0.29150390625, -0.1552734375
0.267578125, -0.25341796875, -0.36376953125
0.18408203125, -0.23828125, -0.42529296875
0.06005859375, -0.32080078125, -0.52001953125
0.06005859375, -0.32080078125, -0.52001953125
0.0498046875, -0.30517578125, -0.55126953125
-0.0947265625, -0.197265625, -0.607421875
-0.32421875, -0.25830078125, -0.80029296875
-0.32421875, -0.25830078125, -0.80029296875
-0.54052734375, -0.3408203125, -0.92333984375
-0.7158203125, -0.7275390625, -1.31298828125
-0.63232421875, -0.7607421875, -1.43408203125
-0.63818359375, -0.3203125, -1.48388671875
-0.63818359375, -0.3203125, -1.48388671875
-0.64599609375, -0.193359375, -1.384765625
-0.66162109375, -0.24853515625, -1.0029296875
-0.7470703125, -0.2021484375, -0.9306640625
-0.7470703125, -0.2021484375, -0.9306640625
-0.85498046875, -0.19189453125, -0.9560546875
-0.93017578125, -0.3525390625, -1.228515625
-0.94873046875, -0.42236328125, -1.32177734375
-0.94873046875, -0.42236328125, -1.32177734375
-0.9814453125, -0.59228515625, -1.373046875
-0.9970703125, -0.611328125, -1.3271484375
-0.92822265625, -0.4912109375, -1.138671875
-0.86669921875, -0.39892578125, -1.03271484375
-0.86669921875, -0.39892578125, -1.03271484375
-0.8095703125, -0.2197265625, -0.85400390625
-0.7529296875, -0.3349609375, -0.7197265625
-0.75390625, -0.44482421875, -0.68896484375
-0.75390625, -0.44482421875, -0.68896484375
-0.77099609375, -0.58447265625, -0.68017578125
-0.76611328125, -0.578125, -0.640625
-0.73779296875, -0.52001953125, -0.533203125
-0.71923828125, -0.47314453125, -0.478515625
-0.71923828125, -0.47314453125, -0.478515625
-0.6640625, -0.388671875, -0.38427734375
-0.548828125, -0.44189453125, -0.3447265625
-0.5546875, -0.5380859375, -0.36181640625
-0.5546875, -0.5380859375, -0.36181640625
-0.54736328125, -0.5576171875, -0.38916015625
-0.525390625, -0.59375, -0.43505859375
-0.51611328125, -0.6123046875, -0.46337890625
-0.50927734375, -0.6435546875, -0.50048828125
-0.50927734375, -0.6435546875, -0.50048828125
-0.5078125, -0.65576171875, -0.51123046875
-0.52880859375, -0.66552734375, -0.50537109375
-0.54736328125, -0.6669921875, -0.48876953125
-0.54736328125, -0.6669921875, -0.48876953125
-0.57080078125, -0.66259765625, -0.46728515625
-0.56396484375, -0.66455078125, -0.46923828125
-0.568359375, -0.67822265625, -0.4794921875
-0.5830078125, -0.7421875, -0.509765625
-0.5830078125, -0.7421875, -0.509765625
-0.5810546875, -0.75341796875, -0.517578125
-0.5703125, -0.708984375, -0.4853515625
-0.55908203125, -0.67724609375, -0.4609375
-0.55908203125, -0.67724609375, -0.4609375
-1.34716796875, 0.02294921875, -1.18603515625
-1.39306640625, -0.185546875, -1.4228515625
-1.3505859375, -0.1513671875, -1.52490234375
-1.3505859375, -0.1513671875, -1.52490234375
-1.20751953125, -0.046875, -1.5400390625
-1.14794921875, 0.01708984375, -1.498046875
-1.0234375, 0.01904296875, -1.41015625
-0.92041015625, -0.03076171875, -1.40673828125
-0.92041015625, -0.03076171875, -1.40673828125
-0.92236328125, -0.1162109375, -1.34521484375
-0.85107421875, 0.02392578125, -1.2421875
-0.70263671875, 0.2392578125, -0.9345703125
-0.70263671875, 0.2392578125, -0.9345703125
-0.7119140625, 0.03271484375, -0.87353515625
-0.69580078125, -0.02197265625, -0.74462890625
-0.619140625, -0.0595703125, -0.4423828125
-0.619140625, -0.0595703125, -0.4423828125
-0.49169921875, -0.076171875, -0.23974609375
-0.107421875, -0.19580078125, -0.013671875
0.03466796875, -0.26025390625, 0.046875
0.15869140625, -0.4208984375, 0.10693359375
0.15869140625, -0.4208984375, 0.10693359375
0.21826171875, -0.4775390625, 0.11279296875
0.28369140625, -0.43115234375, 0.27880859375
0.45654296875, -0.435546875, 0.4404296875
0.45654296875, -0.435546875, 0.4404296875
0.55078125, -0.447265625, 0.513671875
0.703125, -0.3916015625, 0.71044921875
0.732421875, -0.36572265625, 0.7451171875
0.732421875, -0.36572265625, 0.7451171875
0.73583984375, -0.37548828125, 0.7177734375
0.70263671875, -0.35205078125, 0.6806640625
0.69970703125, -0.3603515625, 0.68017578125
0.70849609375, -0.37451171875, 0.70654296875
0.70849609375, -0.37451171875, 0.70654296875
0.720703125, -0.38037109375, 0.73583984375
0.7529296875, -0.40087890625, 0.78515625
0.75, -0.40966796875, 0.78076171875
0.75, -0.40966796875, 0.78076171875
0.7451171875, -0.40234375, 0.7275390625
0.74365234375, -0.400390625, 0.70166015625
0.7421875, -0.41552734375, 0.69287109375
0.74560546875, -0.42333984375, 0.70361328125
0.74560546875, -0.42333984375, 0.70361328125
0.7177734375, -0.451171875, 0.71435546875
0.66796875, -0.48193359375, 0.7197265625
0.6630859375, -0.490234375, 0.70703125
0.6630859375, -0.490234375, 0.70703125
0.65625, -0.4892578125, 0.58935546875
0.65087890625, -0.48291015625, 0.5126953125
0.66455078125, -0.5068359375, 0.30419921875
0.6376953125, -0.533203125, 0.21630859375
0.6376953125, -0.533203125, 0.21630859375
0.6484375, -0.54541015625, 0.203125
0.64013671875, -0.55126953125, 0.22802734375
0.634765625, -0.529296875, 0.283203125
0.634765625, -0.529296875, 0.283203125
0.6259765625, -0.51123046875, 0.263671875
0.5673828125, -0.43798828125, 0.16845703125
0.47509765625, -0.31005859375, -0.01025390625
0.4296875, -0.29150390625, -0.1552734375
0.4296875, -0.29150390625, -0.1552734375
0.267578125, -0.25341796875, -0.36376953125
0.18408203125, -0.23828125, -0.42529296875
0.06005859375, -0.32080078125, -0.52001953125
0.06005859375, -0.32080078125, -0.52001953125
0.0498046875, -0.30517578125, -0.55126953125
-0.0947265625, -0.197265625, -0.607421875
-0.32421875, -0.25830078125, -0.80029296875
-0.32421875, -0.25830078125, -0.80029296875
-0.54052734375, -0.3408203125, -0.92333984375
-0.7158203125, -0.7275390625, -1.31298828125
-0.63232421875, -0.7607421875, -1.43408203125
-0.63818359375, -0.3203125, -1.48388671875
-0.63818359375, -0.3203125, -1.48388671875
-0.64599609375, -0.193359375, -1.384765625
-0.66162109375, -0.24853515625, -1.0029296875
-0.7470703125, -0.2021484375, -0.9306640625
-0.7470703125, -0.2021484375, -0.9306640625
-0.85498046875, -0.19189453125, -0.9560546875
-0.93017578125, -0.3525390625, -1.228515625
-0.94873046875, -0.42236328125, -1.32177734375
-0.94873046875, -0.42236328125, -1.32177734375
-0.9814453125, -0.59228515625, -1.373046875
-0.9970703125, -0.611328125, -1.3271484375
-0.92822265625, -0.4912109375, -1.138671875
-0.86669921875, -0.39892578125, -1.03271484375
-0.86669921875, -0.39892578125, -1.03271484375
-0.8095703125, -0.2197265625, -0.85400390625
-0.7529296875, -0.3349609375, -0.7197265625
-0.75390625, -0.44482421875, -0.68896484375
-0.75390625, -0.44482421875, -0.68896484375
-0.77099609375, -0.58447265625, -0.68017578125
-0.76611328125, -0.578125, -0.640625
-0.73779296875, -0.52001953125, -0.533203125
-0.71923828125, -0.47314453125, -0.478515625
-0.71923828125, -0.47314453125, -0.478515625
-0.6640625, -0.388671875, -0.38427734375
-0.548828125, -0.44189453125, -0.3447265625
-0.5546875, -0.5380859375, -0.36181640625
-0.5546875, -0.5380859375, -0.36181640625
-0.54736328125, -0.5576171875, -0.38916015625
-0.525390625, -0.59375, -0.43505859375
-0.51611328125, -0.6123046875, -0.46337890625
-0.50927734375, -0.6435546875, -0.50048828125
-0.50927734375, -0.6435546875, -0.50048828125
-0.5078125, -0.65576171875, -0.51123046875
-0.52880859375, -0.66552734375, -0.50537109375
-0.54736328125, -0.6669921875, -0.48876953125
-0.54736328125, -0.6669921875, -0.48876953125
-0.57080078125, -0.66259765625, -0.46728515625
-0.56396484375, -0.66455078125, -0.46923828125
-0.568359375, -0.67822265625, -0.4794921875
-0.5830078125, -0.7421875, -0.509765625
-0.5830078125, -0.7421875, -0.509765625
-0.5810546875, -0.75341796875, -0.517578125
-0.5703125, -0.708984375, -0.4853515625
-0.55908203125, -0.67724609375, -0.4609375
-0.55908203125, -0.67724609375, -0.4609375
